Altitude in meters is: 2380.0000
Temperature in K is: 288.0000
Pressure in millibars is: 765.0000
Humidity fraction is: 0.2500

First column is zenith angle
Second column is clocking angle of ADC1
Third column is clocking angle of ADC2
Standing at the tertiary looking towards the W-unit,
a positive angle is clockwise (I think).

Wavelength band is: 0.6000-1.0000 microns

1.0000 -0.2832 -0.2832
2.0000 -0.5665 -0.5665
3.0000 -0.8502 -0.8502
4.0000 -1.1344 -1.1344
5.0000 -1.4193 -1.4193
6.0000 -1.7051 -1.7051
7.0000 -1.9919 -1.9919
8.0000 -2.2803 -2.2803
9.0000 -2.5700 -2.5700
10.0000 -2.8612 -2.8612
11.0000 -3.1545 -3.1545
12.0000 -3.4498 -3.4498
13.0000 -3.7473 -3.7473
14.0000 -4.0474 -4.0474
15.0000 -4.3502 -4.3502
16.0000 -4.6559 -4.6559
17.0000 -4.9649 -4.9649
18.0000 -5.2773 -5.2773
19.0000 -5.5934 -5.5934
20.0000 -5.9135 -5.9135
21.0000 -6.2378 -6.2378
22.0000 -6.5668 -6.5668
23.0000 -6.9006 -6.9006
24.0000 -7.2396 -7.2396
25.0000 -7.5841 -7.5841
26.0000 -7.9346 -7.9346
27.0000 -8.2913 -8.2913
28.0000 -8.6548 -8.6548
29.0000 -9.0255 -9.0255
30.0000 -9.4037 -9.4037
31.0000 -9.7900 -9.7900
32.0000 -10.1849 -10.1849
33.0000 -10.5890 -10.5890
34.0000 -11.0029 -11.0029
35.0000 -11.4271 -11.4271
36.0000 -11.8626 -11.8626
37.0000 -12.3098 -12.3098
38.0000 -12.7697 -12.7697
39.0000 -13.2432 -13.2432
40.0000 -13.7310 -13.7310
41.0000 -14.2344 -14.2344
42.0000 -14.7543 -14.7543
43.0000 -15.2921 -15.2921
44.0000 -15.8490 -15.8490
45.0000 -16.4264 -16.4264
46.0000 -17.0260 -17.0260
47.0000 -17.6498 -17.6498
48.0000 -18.2992 -18.2992
49.0000 -18.9768 -18.9768
50.0000 -19.6849 -19.6849
51.0000 -20.4263 -20.4263
52.0000 -21.2037 -21.2037
53.0000 -22.0209 -22.0209
54.0000 -22.8812 -22.8812
55.0000 -23.7897 -23.7897
56.0000 -24.7509 -24.7509
57.0000 -25.7708 -25.7708
58.0000 -26.8558 -26.8558
59.0000 -28.0140 -28.0140
60.0000 -29.2543 -29.2543
61.0000 -30.5875 -30.5875
62.0000 -32.0267 -32.0267
63.0000 -33.5874 -33.5874
64.0000 -35.2889 -35.2889
65.0000 -37.1552 -37.1552
66.0000 -39.2167 -39.2167
67.0000 -41.5132 -41.5132
68.0000 -44.0988 -44.0988
69.0000 -47.0470 -47.0470
70.0000 -50.4677 -50.4677

